sender,sender_type,sender_id,timestamp,meta,,affect,cue,duration,ended_on,negative_videos,number,positive_videos,ppt,response,rng,session,time_commit,time_end,time_render,time_run,time_show,time_switch,url
Instructions,canvas.Screen,0,2019-08-16T19:52:28.477Z,"{""labjs_version"":""19.1.0"",""labjs_build"":{""flavor"":""production"",""commit"":""3202e253d73e8bd800b4d45551f67c8d57674796""},""location"":""https://labjs.felixhenninger.com/api/labjs_preview/index.html"",""userAgent"":""Mozilla/5.0 (X11; Ubuntu; Linux x86_64; rv:68.0) Gecko/20100101 Firefox/68.0"",""platform"":""Linux x86_64"",""language"":""en-US"",""locale"":""en-US"",""timeZone"":""America/Chicago"",""timezoneOffset"":300,""screen_width"":1920,""screen_height"":1080,""scroll_width"":1904,""scroll_height"":59,""window_innerWidth"":1920,""window_innerHeight"":1022,""devicePixelRatio"":2}",,,,769.63489,response,,,,,,,,1258,1248,428.90175200000004,393,478.36510999999996,1334.119415,{}
Cue word,canvas.Screen,1_0_0_0_0,2019-08-16T19:52:33.549Z,,,positive,other,5058.984531,timeout,"[""negative_ex1.mp4"",""negative_ex2.mp4"",""negative_ex3.mp4"",""negative_ex4.mp4"",""negative_ex5.mp4"",""negative_ex6.mp4"",""negative_ex7.mp4"",""negative_ex8.mp4"",""negative_ex9.mp4""]",1,"[""positive_ex1.mp4"",""positive_ex2.mp4"",""positive_ex3.mp4"",""positive_ex4.mp4"",""positive_ex5.mp4"",""positive_ex6.mp4""]",0,,,0,6329,6326.437282,1300.855092,1263,1334.119415,6393.103946,
Fixation cross,canvas.Screen,1_0_0_0_1,2019-08-16T19:52:35.592Z,,,positive,other,2027.8701310000006,timeout,,1,,,,,,8373,8370.632537000001,6326.437282,6332,6393.103946,8420.974077,
Video - Continuous,html.Screen,1_0_0_0_2,2019-08-16T19:54:42.224Z,,,positive,other,126576.025923,response,,1,,,"[{""value"":913,""playerTime"":7.361927,""browserTime"":7397},{""value"":964,""playerTime"":7.361927,""browserTime"":7413},{""value"":1091,""playerTime"":7.402721,""browserTime"":7446},{""value"":1200,""playerTime"":7.44331,""browserTime"":7463},{""value"":1270,""playerTime"":7.44331,""browserTime"":7479},{""value"":1332,""playerTime"":7.44331,""browserTime"":7496},{""value"":1417,""playerTime"":7.525374,""browserTime"":7562},{""value"":1418,""playerTime"":7.525374,""browserTime"":7579},{""value"":1417,""playerTime"":7.648117,""browserTime"":7696},{""value"":1408,""playerTime"":7.688979,""browserTime"":7712},{""value"":1401,""playerTime"":7.688979,""browserTime"":7746},{""value"":1406,""playerTime"":7.729637,""browserTime"":7762},{""value"":1408,""playerTime"":7.729637,""browserTime"":7779},{""value"":1409,""playerTime"":7.769954,""browserTime"":7795},{""value"":1407,""playerTime"":7.769954,""browserTime"":7811},{""value"":1407,""playerTime"":8.01517,""browserTime"":8046},{""value"":1406,""playerTime"":8.05653,""browserTime"":8113},{""value"":1403,""playerTime"":8.097528,""browserTime"":8129},{""value"":1383,""playerTime"":8.13814,""browserTime"":8162},{""value"":1374,""playerTime"":8.13814,""browserTime"":8178},{""value"":1371,""playerTime"":8.178752,""browserTime"":8196},{""value"":1357,""playerTime"":8.178752,""browserTime"":8229},{""value"":1354,""playerTime"":8.21941,""browserTime"":8246},{""value"":1354,""playerTime"":8.260113,""browserTime"":8278},{""value"":1353,""playerTime"":8.260113,""browserTime"":8313},{""value"":1353,""playerTime"":8.42263,""browserTime"":8463},{""value"":1352,""playerTime"":8.42263,""browserTime"":8480},{""value"":1337,""playerTime"":8.464376,""browserTime"":8496},{""value"":1298,""playerTime"":8.50492,""browserTime"":8529},{""value"":1268,""playerTime"":8.50492,""browserTime"":8546},{""value"":1238,""playerTime"":8.54551,""browserTime"":8563},{""value"":1198,""playerTime"":8.54551,""browserTime"":8597},{""value"":1192,""playerTime"":8.586145,""browserTime"":8613},{""value"":1182,""playerTime"":8.627482,""browserTime"":8646},{""value"":1181,""playerTime"":8.627482,""browserTime"":8663},{""value"":1181,""playerTime"":8.749478,""browserTime"":8796},{""value"":1181,""playerTime"":8.790294,""browserTime"":8829},{""value"":1179,""playerTime"":8.790294,""browserTime"":8846},{""value"":1164,""playerTime"":8.831156,""browserTime"":8863},{""value"":1110,""playerTime"":8.87195,""browserTime"":8896},{""value"":1085,""playerTime"":8.87195,""browserTime"":8912},{""value"":1065,""playerTime"":8.912517,""browserTime"":8930},{""value"":1042,""playerTime"":8.912517,""browserTime"":8963},{""value"":1040,""playerTime"":8.953219,""browserTime"":8979},{""value"":1040,""playerTime"":8.993922,""browserTime"":9012},{""value"":1041,""playerTime"":9.197619,""browserTime"":9246},{""value"":1085,""playerTime"":9.238662,""browserTime"":9263},{""value"":1191,""playerTime"":9.238662,""browserTime"":9295},{""value"":1235,""playerTime"":9.27941,""browserTime"":9313},{""value"":1262,""playerTime"":9.27941,""browserTime"":9330},{""value"":1272,""playerTime"":9.321065,""browserTime"":9362},{""value"":1267,""playerTime"":9.361836,""browserTime"":9396},{""value"":1186,""playerTime"":9.402517,""browserTime"":9429},{""value"":1055,""playerTime"":9.442947,""browserTime"":9463},{""value"":985,""playerTime"":9.442947,""browserTime"":9479},{""value"":925,""playerTime"":9.442947,""browserTime"":9495},{""value"":881,""playerTime"":9.483514,""browserTime"":9512},{""value"":855,""playerTime"":9.483514,""browserTime"":9529},{""value"":848,""playerTime"":9.524421,""browserTime"":9562},{""value"":852,""playerTime"":9.524421,""browserTime"":9579},{""value"":945,""playerTime"":9.564965,""browserTime"":9612},{""value"":1012,""playerTime"":9.605555,""browserTime"":9630},{""value"":1112,""playerTime"":9.605555,""browserTime"":9646},{""value"":1166,""playerTime"":9.605555,""browserTime"":9663},{""value"":1204,""playerTime"":9.646054,""browserTime"":9696},{""value"":1200,""playerTime"":9.68687,""browserTime"":9729},{""value"":1139,""playerTime"":9.727392,""browserTime"":9746},{""value"":1028,""playerTime"":9.727392,""browserTime"":9779},{""value"":985,""playerTime"":9.767936,""browserTime"":9797},{""value"":741,""playerTime"":9.80848,""browserTime"":9829},{""value"":730,""playerTime"":9.80848,""browserTime"":9846},{""value"":809,""playerTime"":9.84907,""browserTime"":9879},{""value"":894,""playerTime"":9.84907,""browserTime"":9896},{""value"":1062,""playerTime"":9.889931,""browserTime"":9930},{""value"":1087,""playerTime"":9.889931,""browserTime"":9946},{""value"":1077,""playerTime"":9.930748,""browserTime"":9979},{""value"":1017,""playerTime"":9.971678,""browserTime"":9995},{""value"":730,""playerTime"":10.012312,""browserTime"":10029},{""value"":689,""playerTime"":10.012312,""browserTime"":10046},{""value"":601,""playerTime"":10.053968,""browserTime"":10079},{""value"":609,""playerTime"":10.053968,""browserTime"":10096},{""value"":735,""playerTime"":10.094512,""browserTime"":10129},{""value"":832,""playerTime"":10.094512,""browserTime"":10145},{""value"":1007,""playerTime"":10.134943,""browserTime"":10179},{""value"":1044,""playerTime"":10.175646,""browserTime"":10196},{""value"":1027,""playerTime"":10.175646,""browserTime"":10212},{""value"":1004,""playerTime"":10.175646,""browserTime"":10229},{""value"":899,""playerTime"":10.216235,""browserTime"":10246},{""value"":740,""playerTime"":10.257482,""browserTime"":10279},{""value"":673,""playerTime"":10.257482,""browserTime"":10295},{""value"":652,""playerTime"":10.297959,""browserTime"":10330},{""value"":691,""playerTime"":10.297959,""browserTime"":10346},{""value"":849,""playerTime"":10.338752,""browserTime"":10379},{""value"":910,""playerTime"":10.379365,""browserTime"":10413},{""value"":965,""playerTime"":10.379365,""browserTime"":10429},{""value"":968,""playerTime"":10.419818,""browserTime"":10446},{""value"":959,""playerTime"":10.460521,""browserTime"":10480},{""value"":946,""playerTime"":10.460521,""browserTime"":10496},{""value"":936,""playerTime"":10.500793,""browserTime"":10529},{""value"":931,""playerTime"":10.500793,""browserTime"":10546},{""value"":934,""playerTime"":10.541451,""browserTime"":10596},{""value"":936,""playerTime"":10.582131,""browserTime"":10612},{""value"":936,""playerTime"":10.582131,""browserTime"":10629},{""value"":939,""playerTime"":10.622698,""browserTime"":10646},{""value"":940,""playerTime"":10.622698,""browserTime"":10662},{""value"":940,""playerTime"":10.622698,""browserTime"":10679},{""value"":941,""playerTime"":10.663242,""browserTime"":10696},{""value"":943,""playerTime"":10.663242,""browserTime"":10712},{""value"":945,""playerTime"":10.703786,""browserTime"":10730},{""value"":961,""playerTime"":10.744195,""browserTime"":10763},{""value"":1000,""playerTime"":10.744195,""browserTime"":10797},{""value"":1038,""playerTime"":10.784693,""browserTime"":10812},{""value"":1057,""playerTime"":10.784693,""browserTime"":10824},{""value"":405,""playerTime"":26.642267,""browserTime"":26681},{""value"":424,""playerTime"":26.642267,""browserTime"":26696},{""value"":541,""playerTime"":26.683015,""browserTime"":26730},{""value"":602,""playerTime"":26.723764,""browserTime"":26746},{""value"":678,""playerTime"":26.723764,""browserTime"":26762},{""value"":716,""playerTime"":26.764172,""browserTime"":26795},{""value"":760,""playerTime"":26.764172,""browserTime"":26813},{""value"":785,""playerTime"":26.804693,""browserTime"":26847},{""value"":794,""playerTime"":26.845283,""browserTime"":26862},{""value"":802,""playerTime"":26.845283,""browserTime"":26896},{""value"":801,""playerTime"":26.885827,""browserTime"":26930},{""value"":806,""playerTime"":26.926598,""browserTime"":26945},{""value"":840,""playerTime"":26.926598,""browserTime"":26963},{""value"":957,""playerTime"":26.96712,""browserTime"":26997},{""value"":1046,""playerTime"":26.96712,""browserTime"":27012},{""value"":1086,""playerTime"":27.007981,""browserTime"":27046},{""value"":1120,""playerTime"":27.048888,""browserTime"":27079},{""value"":1123,""playerTime"":27.048888,""browserTime"":27096},{""value"":1123,""playerTime"":27.089705,""browserTime"":27146},{""value"":1123,""playerTime"":27.172743,""browserTime"":27212},{""value"":1124,""playerTime"":27.172743,""browserTime"":27230},{""value"":1130,""playerTime"":27.213378,""browserTime"":27246},{""value"":1155,""playerTime"":27.254943,""browserTime"":27279},{""value"":1172,""playerTime"":27.254943,""browserTime"":27296},{""value"":1182,""playerTime"":27.295646,""browserTime"":27330},{""value"":1182,""playerTime"":27.623242,""browserTime"":27679},{""value"":1175,""playerTime"":27.664081,""browserTime"":27696},{""value"":1166,""playerTime"":27.664081,""browserTime"":27713},{""value"":1154,""playerTime"":27.70619,""browserTime"":27746},{""value"":1149,""playerTime"":27.70619,""browserTime"":27763},{""value"":1147,""playerTime"":27.746666,""browserTime"":27779},{""value"":1146,""playerTime"":27.787256,""browserTime"":27829},{""value"":1131,""playerTime"":27.787256,""browserTime"":27846},{""value"":1130,""playerTime"":27.828752,""browserTime"":27863},{""value"":1129,""playerTime"":27.951609,""browserTime"":27996},{""value"":1127,""playerTime"":27.99238,""browserTime"":28012},{""value"":1122,""playerTime"":27.99238,""browserTime"":28030},{""value"":1087,""playerTime"":28.034081,""browserTime"":28063},{""value"":1069,""playerTime"":28.034081,""browserTime"":28080},{""value"":1054,""playerTime"":28.074784,""browserTime"":28112},{""value"":1053,""playerTime"":28.074784,""browserTime"":28129},{""value"":1053,""playerTime"":28.240839,""browserTime"":28263},{""value"":1053,""playerTime"":28.406598,""browserTime"":28446},{""value"":409,""playerTime"":91.686235,""browserTime"":91728},{""value"":409,""playerTime"":91.726893,""browserTime"":91746},{""value"":414,""playerTime"":91.726893,""browserTime"":91762},{""value"":447,""playerTime"":91.726893,""browserTime"":91779},{""value"":500,""playerTime"":91.767482,""browserTime"":91796},{""value"":668,""playerTime"":91.80814,""browserTime"":91829},{""value"":731,""playerTime"":91.80814,""browserTime"":91846},{""value"":772,""playerTime"":91.80814,""browserTime"":91862},{""value"":802,""playerTime"":91.84873,""browserTime"":91880},{""value"":831,""playerTime"":91.889342,""browserTime"":91913},{""value"":832,""playerTime"":91.889342,""browserTime"":91946},{""value"":832,""playerTime"":92.011587,""browserTime"":92046},{""value"":832,""playerTime"":92.011587,""browserTime"":92070},{""value"":832,""playerTime"":92.093356,""browserTime"":92113},{""value"":832,""playerTime"":92.093356,""browserTime"":92146},{""value"":832,""playerTime"":93.243718,""browserTime"":93263},{""value"":834,""playerTime"":93.243718,""browserTime"":93279},{""value"":836,""playerTime"":93.243718,""browserTime"":93297},{""value"":845,""playerTime"":93.284784,""browserTime"":93329},{""value"":872,""playerTime"":93.325464,""browserTime"":93346},{""value"":888,""playerTime"":93.325464,""browserTime"":93364},{""value"":901,""playerTime"":93.366258,""browserTime"":93396},{""value"":908,""playerTime"":93.40814,""browserTime"":93430},{""value"":911,""playerTime"":93.612993,""browserTime"":93647},{""value"":916,""playerTime"":93.612993,""browserTime"":93664},{""value"":1015,""playerTime"":93.653696,""browserTime"":93696},{""value"":1059,""playerTime"":93.653696,""browserTime"":93712},{""value"":1092,""playerTime"":93.694353,""browserTime"":93729},{""value"":1111,""playerTime"":93.735192,""browserTime"":93763},{""value"":1107,""playerTime"":94.560181,""browserTime"":94581},{""value"":1098,""playerTime"":94.560181,""browserTime"":94597},{""value"":1002,""playerTime"":94.600793,""browserTime"":94629},{""value"":961,""playerTime"":94.600793,""browserTime"":94646},{""value"":924,""playerTime"":94.641383,""browserTime"":94662},{""value"":874,""playerTime"":94.641383,""browserTime"":94695},{""value"":868,""playerTime"":94.682018,""browserTime"":94713},{""value"":867,""playerTime"":94.722494,""browserTime"":94746},{""value"":869,""playerTime"":95.050884,""browserTime"":95080},{""value"":878,""playerTime"":95.050884,""browserTime"":95095},{""value"":934,""playerTime"":95.091564,""browserTime"":95129},{""value"":974,""playerTime"":95.091564,""browserTime"":95147},{""value"":1038,""playerTime"":95.132517,""browserTime"":95179},{""value"":1084,""playerTime"":95.174535,""browserTime"":95195},{""value"":1099,""playerTime"":95.174535,""browserTime"":95213},{""value"":1102,""playerTime"":95.215396,""browserTime"":95245},{""value"":1100,""playerTime"":95.33712,""browserTime"":95378},{""value"":1076,""playerTime"":95.377482,""browserTime"":95396},{""value"":1027,""playerTime"":95.377482,""browserTime"":95429},{""value"":859,""playerTime"":95.458435,""browserTime"":95480},{""value"":843,""playerTime"":95.458435,""browserTime"":95495},{""value"":826,""playerTime"":95.458435,""browserTime"":95512},{""value"":819,""playerTime"":95.498956,""browserTime"":95529},{""value"":818,""playerTime"":95.498956,""browserTime"":95546},{""value"":818,""playerTime"":95.539659,""browserTime"":95579},{""value"":820,""playerTime"":95.661496,""browserTime"":95696},{""value"":840,""playerTime"":95.661496,""browserTime"":95714},{""value"":901,""playerTime"":95.702267,""browserTime"":95746},{""value"":946,""playerTime"":95.743015,""browserTime"":95762},{""value"":994,""playerTime"":95.743015,""browserTime"":95779},{""value"":1012,""playerTime"":95.783809,""browserTime"":95812},{""value"":1008,""playerTime"":96.439909,""browserTime"":96463},{""value"":991,""playerTime"":96.439909,""browserTime"":96481},{""value"":948,""playerTime"":96.480634,""browserTime"":96512},{""value"":915,""playerTime"":96.480634,""browserTime"":96530},{""value"":881,""playerTime"":96.521224,""browserTime"":96546},{""value"":850,""playerTime"":96.521224,""browserTime"":96579},{""value"":845,""playerTime"":96.561768,""browserTime"":96596},{""value"":844,""playerTime"":96.602448,""browserTime"":96629},{""value"":849,""playerTime"":96.643809,""browserTime"":96696},{""value"":871,""playerTime"":96.684693,""browserTime"":96712},{""value"":906,""playerTime"":96.684693,""browserTime"":96730},{""value"":946,""playerTime"":96.725351,""browserTime"":96745},{""value"":1013,""playerTime"":96.725351,""browserTime"":96779},{""value"":1026,""playerTime"":96.765941,""browserTime"":96796},{""value"":1026,""playerTime"":96.765941,""browserTime"":96812},{""value"":1025,""playerTime"":96.806712,""browserTime"":96829},{""value"":1009,""playerTime"":96.806712,""browserTime"":96864},{""value"":979,""playerTime"":96.847505,""browserTime"":96879},{""value"":938,""playerTime"":96.847505,""browserTime"":96896},{""value"":797,""playerTime"":96.888208,""browserTime"":96945},{""value"":763,""playerTime"":96.928843,""browserTime"":96963},{""value"":748,""playerTime"":96.928843,""browserTime"":96978},{""value"":748,""playerTime"":96.969773,""browserTime"":96996},{""value"":749,""playerTime"":96.969773,""browserTime"":97012},{""value"":795,""playerTime"":97.01043,""browserTime"":97029},{""value"":837,""playerTime"":97.01043,""browserTime"":97046},{""value"":881,""playerTime"":97.051292,""browserTime"":97080},{""value"":936,""playerTime"":97.051292,""browserTime"":97096},{""value"":960,""playerTime"":97.093333,""browserTime"":97129},{""value"":950,""playerTime"":97.134172,""browserTime"":97162},{""value"":924,""playerTime"":97.134172,""browserTime"":97180},{""value"":892,""playerTime"":97.175442,""browserTime"":97196},{""value"":832,""playerTime"":97.175442,""browserTime"":97229},{""value"":817,""playerTime"":97.216326,""browserTime"":97247},{""value"":814,""playerTime"":97.256961,""browserTime"":97280},{""value"":812,""playerTime"":97.752811,""browserTime"":97780},{""value"":812,""playerTime"":97.752811,""browserTime"":97797},{""value"":837,""playerTime"":97.793492,""browserTime"":97813},{""value"":876,""playerTime"":97.793492,""browserTime"":97829},{""value"":899,""playerTime"":97.793492,""browserTime"":97846},{""value"":975,""playerTime"":97.834217,""browserTime"":97862},{""value"":997,""playerTime"":97.834217,""browserTime"":97880},{""value"":1024,""playerTime"":97.874988,""browserTime"":97912},{""value"":1035,""playerTime"":97.874988,""browserTime"":97929}]",,,135005,134997,8370.632537000001,8377,8420.974077,135067.42431,
Trial sequence,flow.Sequence,1_0_0_0,2019-08-16T19:54:42.245Z,,,positive,other,133662.880585,completion,,1,,,,,,135026,134997,1300.855092,1263,1334.119415,135067.42431,
Cue word,canvas.Screen,1_0_0_1_0,2019-08-16T19:54:47.264Z,,,positive,gaze,5041.746832999983,timeout,,1,,,,,,140046,140042.519648,135034.112624,135029,135067.42431,140109.17114299999,
Fixation cross,canvas.Screen,1_0_0_1_1,2019-08-16T19:54:49.308Z,,,positive,gaze,2026.0014000000374,timeout,,1,,,,,,142089,142085.52283899998,140042.519648,140048,140109.17114299999,142135.17254300002,
Video - Continuous,html.Screen,1_0_0_1_2,2019-08-16T19:55:54.366Z,,,positive,gaze,65003.82745699998,response,,1,,,"[{""value"":932,""playerTime"":32.414013,""browserTime"":32450},{""value"":931,""playerTime"":32.414013,""browserTime"":32466},{""value"":932,""playerTime"":32.454739,""browserTime"":32499},{""value"":933,""playerTime"":32.495941,""browserTime"":32516},{""value"":938,""playerTime"":32.495941,""browserTime"":32533},{""value"":942,""playerTime"":32.536258,""browserTime"":32565},{""value"":942,""playerTime"":32.536258,""browserTime"":32582},{""value"":943,""playerTime"":32.65975,""browserTime"":32715},{""value"":960,""playerTime"":32.700589,""browserTime"":32733},{""value"":1040,""playerTime"":32.741269,""browserTime"":32766},{""value"":1084,""playerTime"":32.741269,""browserTime"":32782},{""value"":1117,""playerTime"":32.741269,""browserTime"":32800},{""value"":1137,""playerTime"":32.782063,""browserTime"":32833},{""value"":1137,""playerTime"":32.822811,""browserTime"":32849},{""value"":1134,""playerTime"":32.822811,""browserTime"":32865},{""value"":1119,""playerTime"":32.822811,""browserTime"":32882},{""value"":1087,""playerTime"":32.863401,""browserTime"":32899},{""value"":1007,""playerTime"":32.903922,""browserTime"":32933},{""value"":962,""playerTime"":32.903922,""browserTime"":32949},{""value"":877,""playerTime"":32.944467,""browserTime"":32982},{""value"":849,""playerTime"":32.944467,""browserTime"":32999},{""value"":831,""playerTime"":32.985034,""browserTime"":33033},{""value"":830,""playerTime"":33.02687,""browserTime"":33049},{""value"":830,""playerTime"":33.02687,""browserTime"":33082},{""value"":839,""playerTime"":33.06746,""browserTime"":33116},{""value"":868,""playerTime"":33.107891,""browserTime"":33132},{""value"":887,""playerTime"":33.107891,""browserTime"":33149},{""value"":950,""playerTime"":33.107891,""browserTime"":33166},{""value"":1003,""playerTime"":33.148435,""browserTime"":33199},{""value"":1011,""playerTime"":33.189727,""browserTime"":33216},{""value"":1001,""playerTime"":33.189727,""browserTime"":33249},{""value"":942,""playerTime"":33.23043,""browserTime"":33282},{""value"":916,""playerTime"":33.270929,""browserTime"":33299},{""value"":740,""playerTime"":33.311405,""browserTime"":33332},{""value"":699,""playerTime"":33.311405,""browserTime"":33350},{""value"":669,""playerTime"":33.351972,""browserTime"":33382},{""value"":669,""playerTime"":33.351972,""browserTime"":33399},{""value"":668,""playerTime"":33.433083,""browserTime"":33466},{""value"":667,""playerTime"":33.433083,""browserTime"":33482},{""value"":667,""playerTime"":33.473537,""browserTime"":33499},{""value"":667,""playerTime"":33.473537,""browserTime"":33516},{""value"":667,""playerTime"":33.556371,""browserTime"":33616},{""value"":667,""playerTime"":33.679909,""browserTime"":33716},{""value"":667,""playerTime"":33.761995,""browserTime"":33783},{""value"":668,""playerTime"":33.761995,""browserTime"":33799},{""value"":681,""playerTime"":33.761995,""browserTime"":33816},{""value"":721,""playerTime"":33.802766,""browserTime"":33849},{""value"":839,""playerTime"":33.843356,""browserTime"":33883},{""value"":907,""playerTime"":33.843356,""browserTime"":33899},{""value"":927,""playerTime"":33.884126,""browserTime"":33916},{""value"":961,""playerTime"":33.884126,""browserTime"":33933},{""value"":1010,""playerTime"":33.924671,""browserTime"":33966},{""value"":1022,""playerTime"":33.924671,""browserTime"":33983},{""value"":1082,""playerTime"":33.965328,""browserTime"":34016},{""value"":1089,""playerTime"":34.006326,""browserTime"":34033},{""value"":1099,""playerTime"":34.006326,""browserTime"":34067},{""value"":1092,""playerTime"":34.047845,""browserTime"":34099},{""value"":1077,""playerTime"":34.088435,""browserTime"":34115},{""value"":1056,""playerTime"":34.088435,""browserTime"":34132},{""value"":1030,""playerTime"":34.12882,""browserTime"":34148},{""value"":1000,""playerTime"":34.12882,""browserTime"":34167},{""value"":942,""playerTime"":34.169591,""browserTime"":34199},{""value"":896,""playerTime"":34.169591,""browserTime"":34217},{""value"":829,""playerTime"":34.210068,""browserTime"":34232},{""value"":792,""playerTime"":34.210068,""browserTime"":34251},{""value"":750,""playerTime"":34.25077,""browserTime"":34283},{""value"":735,""playerTime"":34.25077,""browserTime"":34299},{""value"":720,""playerTime"":34.292108,""browserTime"":34332},{""value"":714,""playerTime"":34.292108,""browserTime"":34349},{""value"":705,""playerTime"":34.333061,""browserTime"":34365},{""value"":699,""playerTime"":34.373741,""browserTime"":34399},{""value"":696,""playerTime"":34.373741,""browserTime"":34416},{""value"":692,""playerTime"":34.373741,""browserTime"":34432},{""value"":690,""playerTime"":34.414399,""browserTime"":34450},{""value"":688,""playerTime"":34.454988,""browserTime"":34485},{""value"":679,""playerTime"":34.496462,""browserTime"":34516},{""value"":677,""playerTime"":34.496462,""browserTime"":34549},{""value"":676,""playerTime"":34.536961,""browserTime"":34566},{""value"":676,""playerTime"":34.741678,""browserTime"":34783},{""value"":676,""playerTime"":34.741678,""browserTime"":34799},{""value"":676,""playerTime"":34.866598,""browserTime"":34916},{""value"":677,""playerTime"":34.907596,""browserTime"":34933},{""value"":680,""playerTime"":34.907596,""browserTime"":34950},{""value"":682,""playerTime"":34.948276,""browserTime"":34983},{""value"":682,""playerTime"":34.948276,""browserTime"":34999},{""value"":682,""playerTime"":34.989092,""browserTime"":35016},{""value"":682,""playerTime"":34.989092,""browserTime"":35032},{""value"":682,""playerTime"":35.029614,""browserTime"":35049},{""value"":682,""playerTime"":35.029614,""browserTime"":35065},{""value"":681,""playerTime"":35.070476,""browserTime"":35116},{""value"":681,""playerTime"":35.11136,""browserTime"":35150},{""value"":680,""playerTime"":35.152267,""browserTime"":35183},{""value"":680,""playerTime"":35.152267,""browserTime"":35198},{""value"":679,""playerTime"":35.192857,""browserTime"":35216},{""value"":678,""playerTime"":35.192857,""browserTime"":35232},{""value"":676,""playerTime"":35.192857,""browserTime"":35249},{""value"":672,""playerTime"":35.233446,""browserTime"":35265},{""value"":668,""playerTime"":35.233446,""browserTime"":35283},{""value"":661,""playerTime"":35.274195,""browserTime"":35316},{""value"":657,""playerTime"":35.274195,""browserTime"":35332},{""value"":652,""playerTime"":35.355283,""browserTime"":35399},{""value"":641,""playerTime"":35.395759,""browserTime"":35416},{""value"":640,""playerTime"":35.395759,""browserTime"":35449},{""value"":640,""playerTime"":35.436281,""browserTime"":35466},{""value"":640,""playerTime"":35.436281,""browserTime"":35482},{""value"":639,""playerTime"":35.477823,""browserTime"":35499},{""value"":639,""playerTime"":35.477823,""browserTime"":35515},{""value"":639,""playerTime"":35.722811,""browserTime"":35750},{""value"":639,""playerTime"":35.722811,""browserTime"":35782},{""value"":638,""playerTime"":35.76365,""browserTime"":35815},{""value"":638,""playerTime"":35.804648,""browserTime"":35849},{""value"":638,""playerTime"":35.927006,""browserTime"":35983},{""value"":637,""playerTime"":35.968049,""browserTime"":36016},{""value"":637,""playerTime"":36.008979,""browserTime"":36034},{""value"":633,""playerTime"":36.008979,""browserTime"":36049},{""value"":625,""playerTime"":36.008979,""browserTime"":36066},{""value"":622,""playerTime"":36.049591,""browserTime"":36082},{""value"":576,""playerTime"":36.090249,""browserTime"":36132},{""value"":561,""playerTime"":36.090249,""browserTime"":36149},{""value"":553,""playerTime"":36.130589,""browserTime"":36167},{""value"":550,""playerTime"":36.172176,""browserTime"":36199},{""value"":549,""playerTime"":36.172176,""browserTime"":36215},{""value"":548,""playerTime"":36.213015,""browserTime"":36249},{""value"":548,""playerTime"":36.213015,""browserTime"":36266},{""value"":547,""playerTime"":36.253741,""browserTime"":36281},{""value"":547,""playerTime"":36.253741,""browserTime"":36299},{""value"":548,""playerTime"":36.29458,""browserTime"":36315},{""value"":548,""playerTime"":36.29458,""browserTime"":36349},{""value"":549,""playerTime"":36.335192,""browserTime"":36382},{""value"":550,""playerTime"":36.375691,""browserTime"":36399},{""value"":552,""playerTime"":36.375691,""browserTime"":36416},{""value"":559,""playerTime"":36.375691,""browserTime"":36432},{""value"":573,""playerTime"":36.416303,""browserTime"":36449},{""value"":601,""playerTime"":36.457006,""browserTime"":36483},{""value"":632,""playerTime"":36.457006,""browserTime"":36498},{""value"":644,""playerTime"":36.497551,""browserTime"":36534},{""value"":647,""playerTime"":36.497551,""browserTime"":36549},{""value"":646,""playerTime"":36.579591,""browserTime"":36616},{""value"":646,""playerTime"":36.662063,""browserTime"":36700},{""value"":645,""playerTime"":36.826893,""browserTime"":36882},{""value"":645,""playerTime"":36.867596,""browserTime"":36899},{""value"":644,""playerTime"":36.867596,""browserTime"":36916},{""value"":644,""playerTime"":36.908117,""browserTime"":36932},{""value"":643,""playerTime"":36.908117,""browserTime"":36949},{""value"":642,""playerTime"":36.908117,""browserTime"":36966},{""value"":639,""playerTime"":36.948775,""browserTime"":36999},{""value"":639,""playerTime"":36.989886,""browserTime"":37032},{""value"":639,""playerTime"":36.989886,""browserTime"":37049},{""value"":642,""playerTime"":37.030385,""browserTime"":37082},{""value"":646,""playerTime"":37.070929,""browserTime"":37099},{""value"":646,""playerTime"":37.070929,""browserTime"":37115},{""value"":649,""playerTime"":37.111541,""browserTime"":37132},{""value"":650,""playerTime"":37.111541,""browserTime"":37149},{""value"":648,""playerTime"":37.440362,""browserTime"":37466},{""value"":635,""playerTime"":37.440362,""browserTime"":37483},{""value"":629,""playerTime"":37.481224,""browserTime"":37515},{""value"":628,""playerTime"":37.481224,""browserTime"":37532},{""value"":629,""playerTime"":37.521904,""browserTime"":37549},{""value"":632,""playerTime"":37.562471,""browserTime"":37583},{""value"":659,""playerTime"":37.562471,""browserTime"":37598},{""value"":689,""playerTime"":37.602902,""browserTime"":37650},{""value"":798,""playerTime"":37.64365,""browserTime"":37665},{""value"":833,""playerTime"":37.64365,""browserTime"":37682},{""value"":872,""playerTime"":37.64365,""browserTime"":37698},{""value"":960,""playerTime"":37.685034,""browserTime"":37732},{""value"":995,""playerTime"":37.725532,""browserTime"":37749},{""value"":1025,""playerTime"":37.725532,""browserTime"":37782},{""value"":1029,""playerTime"":37.766031,""browserTime"":37799},{""value"":1030,""playerTime"":37.806734,""browserTime"":37833},{""value"":1031,""playerTime"":37.806734,""browserTime"":37866},{""value"":1032,""playerTime"":37.847346,""browserTime"":37900},{""value"":1033,""playerTime"":37.88907,""browserTime"":37916},{""value"":1036,""playerTime"":37.88907,""browserTime"":37949},{""value"":1037,""playerTime"":37.929705,""browserTime"":37966},{""value"":1038,""playerTime"":37.970294,""browserTime"":37999},{""value"":1036,""playerTime"":38.010816,""browserTime"":38066},{""value"":1034,""playerTime"":38.051541,""browserTime"":38083},{""value"":1033,""playerTime"":38.051541,""browserTime"":38099},{""value"":1021,""playerTime"":38.092494,""browserTime"":38133},{""value"":1016,""playerTime"":38.092494,""browserTime"":38149},{""value"":1008,""playerTime"":38.133174,""browserTime"":38183},{""value"":1002,""playerTime"":38.173877,""browserTime"":38199},{""value"":981,""playerTime"":38.173877,""browserTime"":38232},{""value"":963,""playerTime"":38.21517,""browserTime"":38250},{""value"":932,""playerTime"":38.21517,""browserTime"":38265},{""value"":920,""playerTime"":38.255736,""browserTime"":38283},{""value"":898,""playerTime"":38.255736,""browserTime"":38315},{""value"":893,""playerTime"":38.296371,""browserTime"":38350},{""value"":878,""playerTime"":38.377755,""browserTime"":38399},{""value"":878,""playerTime"":38.418412,""browserTime"":38466},{""value"":881,""playerTime"":38.458866,""browserTime"":38482},{""value"":888,""playerTime"":38.458866,""browserTime"":38500},{""value"":908,""playerTime"":38.458866,""browserTime"":38516},{""value"":976,""playerTime"":38.499319,""browserTime"":38549},{""value"":1056,""playerTime"":38.539727,""browserTime"":38582},{""value"":1078,""playerTime"":38.539727,""browserTime"":38600},{""value"":1176,""playerTime"":38.580385,""browserTime"":38633},{""value"":1210,""playerTime"":38.620952,""browserTime"":38650},{""value"":1270,""playerTime"":38.661496,""browserTime"":38683},{""value"":1298,""playerTime"":38.661496,""browserTime"":38700},{""value"":1301,""playerTime"":38.702063,""browserTime"":38732},{""value"":1302,""playerTime"":38.742857,""browserTime"":38766},{""value"":1302,""playerTime"":39.11195,""browserTime"":39165},{""value"":1302,""playerTime"":39.152766,""browserTime"":39182},{""value"":1303,""playerTime"":39.152766,""browserTime"":39199},{""value"":1304,""playerTime"":39.193356,""browserTime"":39215},{""value"":1306,""playerTime"":39.193356,""browserTime"":39249},{""value"":1310,""playerTime"":39.234104,""browserTime"":39265},{""value"":1323,""playerTime"":39.234104,""browserTime"":39283},{""value"":1335,""playerTime"":39.274648,""browserTime"":39316},{""value"":1340,""playerTime"":39.274648,""browserTime"":39332},{""value"":1341,""playerTime"":39.315124,""browserTime"":39365},{""value"":1342,""playerTime"":39.355736,""browserTime"":39383},{""value"":1347,""playerTime"":39.355736,""browserTime"":39416},{""value"":1348,""playerTime"":39.396394,""browserTime"":39432},{""value"":1350,""playerTime"":39.43721,""browserTime"":39466},{""value"":1350,""playerTime"":39.479206,""browserTime"":39532},{""value"":1348,""playerTime"":39.519818,""browserTime"":39549},{""value"":1344,""playerTime"":39.519818,""browserTime"":39565},{""value"":1338,""playerTime"":39.560181,""browserTime"":39582},{""value"":1318,""playerTime"":39.560181,""browserTime"":39616},{""value"":1307,""playerTime"":39.600544,""browserTime"":39632},{""value"":1283,""playerTime"":39.642312,""browserTime"":39665},{""value"":1266,""playerTime"":39.642312,""browserTime"":39683},{""value"":1225,""playerTime"":39.682743,""browserTime"":39716},{""value"":1208,""playerTime"":39.682743,""browserTime"":39732},{""value"":1113,""playerTime"":39.723446,""browserTime"":39766},{""value"":1059,""playerTime"":39.723446,""browserTime"":39783},{""value"":961,""playerTime"":39.764535,""browserTime"":39816},{""value"":917,""playerTime"":39.806326,""browserTime"":39832},{""value"":879,""playerTime"":39.806326,""browserTime"":39865},{""value"":827,""playerTime"":39.84712,""browserTime"":39882},{""value"":822,""playerTime"":39.84712,""browserTime"":39899},{""value"":819,""playerTime"":39.887891,""browserTime"":39916},{""value"":818,""playerTime"":39.887891,""browserTime"":39933},{""value"":818,""playerTime"":39.928594,""browserTime"":39982},{""value"":816,""playerTime"":39.969274,""browserTime"":40000},{""value"":811,""playerTime"":39.969274,""browserTime"":40016},{""value"":798,""playerTime"":40.01077,""browserTime"":40049},{""value"":795,""playerTime"":40.01077,""browserTime"":40066},{""value"":792,""playerTime"":40.051609,""browserTime"":40100},{""value"":790,""playerTime"":40.092517,""browserTime"":40116},{""value"":789,""playerTime"":40.092517,""browserTime"":40149},{""value"":789,""playerTime"":40.133628,""browserTime"":40182},{""value"":789,""playerTime"":40.174444,""browserTime"":40215},{""value"":789,""playerTime"":40.255918,""browserTime"":40316},{""value"":789,""playerTime"":40.338934,""browserTime"":40366},{""value"":787,""playerTime"":40.338934,""browserTime"":40400},{""value"":784,""playerTime"":40.382426,""browserTime"":40417},{""value"":754,""playerTime"":40.423129,""browserTime"":40449},{""value"":743,""playerTime"":40.423129,""browserTime"":40466},{""value"":691,""playerTime"":40.463582,""browserTime"":40499},{""value"":665,""playerTime"":40.504285,""browserTime"":40533},{""value"":659,""playerTime"":40.504285,""browserTime"":40549},{""value"":648,""playerTime"":40.544807,""browserTime"":40566},{""value"":638,""playerTime"":40.544807,""browserTime"":40584},{""value"":627,""playerTime"":40.585646,""browserTime"":40616},{""value"":608,""playerTime"":40.626621,""browserTime"":40649},{""value"":605,""playerTime"":40.626621,""browserTime"":40666},{""value"":602,""playerTime"":40.667233,""browserTime"":40699},{""value"":602,""playerTime"":40.667233,""browserTime"":40716},{""value"":601,""playerTime"":40.707959,""browserTime"":40732},{""value"":600,""playerTime"":40.707959,""browserTime"":40765},{""value"":599,""playerTime"":40.748526,""browserTime"":40782},{""value"":597,""playerTime"":40.748526,""browserTime"":40798},{""value"":595,""playerTime"":40.789206,""browserTime"":40817},{""value"":590,""playerTime"":40.829614,""browserTime"":40849},{""value"":589,""playerTime"":40.829614,""browserTime"":40865},{""value"":588,""playerTime"":40.870181,""browserTime"":40899},{""value"":587,""playerTime"":40.870181,""browserTime"":40916},{""value"":586,""playerTime"":40.911043,""browserTime"":40948},{""value"":586,""playerTime"":40.911043,""browserTime"":40966},{""value"":585,""playerTime"":40.95195,""browserTime"":40983},{""value"":578,""playerTime"":40.95195,""browserTime"":41000},{""value"":544,""playerTime"":40.992562,""browserTime"":41016},{""value"":499,""playerTime"":40.992562,""browserTime"":41034},{""value"":379,""playerTime"":41.034263,""browserTime"":41066},{""value"":345,""playerTime"":41.034263,""browserTime"":41083},{""value"":251,""playerTime"":41.074897,""browserTime"":41116},{""value"":181,""playerTime"":41.074897,""browserTime"":41133},{""value"":99,""playerTime"":41.115623,""browserTime"":41166},{""value"":75,""playerTime"":41.156213,""browserTime"":41200},{""value"":74,""playerTime"":41.156213,""browserTime"":41215},{""value"":74,""playerTime"":41.483854,""browserTime"":41516},{""value"":102,""playerTime"":41.483854,""browserTime"":41532},{""value"":135,""playerTime"":41.524852,""browserTime"":41550},{""value"":185,""playerTime"":41.524852,""browserTime"":41583},{""value"":219,""playerTime"":41.565419,""browserTime"":41599},{""value"":266,""playerTime"":41.565419,""browserTime"":41616},{""value"":370,""playerTime"":41.606009,""browserTime"":41650},{""value"":423,""playerTime"":41.606009,""browserTime"":41665},{""value"":532,""playerTime"":41.646417,""browserTime"":41699},{""value"":591,""playerTime"":41.686984,""browserTime"":41715},{""value"":701,""playerTime"":41.727573,""browserTime"":41749},{""value"":720,""playerTime"":41.727573,""browserTime"":41766},{""value"":723,""playerTime"":41.727573,""browserTime"":41782},{""value"":722,""playerTime"":41.767891,""browserTime"":41816},{""value"":719,""playerTime"":41.808321,""browserTime"":41833},{""value"":712,""playerTime"":41.808321,""browserTime"":41865},{""value"":710,""playerTime"":41.848866,""browserTime"":41883},{""value"":702,""playerTime"":41.890022,""browserTime"":41915},{""value"":701,""playerTime"":41.890022,""browserTime"":41931},{""value"":701,""playerTime"":41.930566,""browserTime"":41966},{""value"":703,""playerTime"":41.930566,""browserTime"":41983},{""value"":709,""playerTime"":41.972131,""browserTime"":42000},{""value"":723,""playerTime"":41.972131,""browserTime"":42016},{""value"":771,""playerTime"":42.012925,""browserTime"":42050},{""value"":786,""playerTime"":42.012925,""browserTime"":42065},{""value"":788,""playerTime"":42.060589,""browserTime"":42082},{""value"":788,""playerTime"":42.060589,""browserTime"":42099},{""value"":788,""playerTime"":42.101043,""browserTime"":42150},{""value"":788,""playerTime"":42.141678,""browserTime"":42182},{""value"":790,""playerTime"":42.141678,""browserTime"":42199},{""value"":795,""playerTime"":42.18229,""browserTime"":42216},{""value"":834,""playerTime"":42.222879,""browserTime"":42250},{""value"":879,""playerTime"":42.222879,""browserTime"":42265},{""value"":893,""playerTime"":42.222879,""browserTime"":42283},{""value"":922,""playerTime"":42.264399,""browserTime"":42298},{""value"":928,""playerTime"":42.305192,""browserTime"":42331},{""value"":916,""playerTime"":42.34585,""browserTime"":42366},{""value"":887,""playerTime"":42.34585,""browserTime"":42399},{""value"":863,""playerTime"":42.386485,""browserTime"":42416},{""value"":831,""playerTime"":42.386485,""browserTime"":42433},{""value"":786,""playerTime"":42.427142,""browserTime"":42450},{""value"":694,""playerTime"":42.427142,""browserTime"":42482},{""value"":609,""playerTime"":42.467755,""browserTime"":42500},{""value"":545,""playerTime"":42.508503,""browserTime"":42533},{""value"":507,""playerTime"":42.508503,""browserTime"":42565},{""value"":504,""playerTime"":42.548866,""browserTime"":42582},{""value"":499,""playerTime"":42.548866,""browserTime"":42599},{""value"":498,""playerTime"":42.589478,""browserTime"":42615},{""value"":496,""playerTime"":42.589478,""browserTime"":42633},{""value"":493,""playerTime"":42.630521,""browserTime"":42665},{""value"":491,""playerTime"":42.630521,""browserTime"":42683},{""value"":488,""playerTime"":42.671224,""browserTime"":42718},{""value"":485,""playerTime"":42.711927,""browserTime"":42733},{""value"":483,""playerTime"":42.711927,""browserTime"":42765},{""value"":481,""playerTime"":42.752743,""browserTime"":42799},{""value"":480,""playerTime"":42.793378,""browserTime"":42816},{""value"":478,""playerTime"":42.793378,""browserTime"":42849},{""value"":478,""playerTime"":42.835691,""browserTime"":42865},{""value"":479,""playerTime"":42.876326,""browserTime"":42899},{""value"":480,""playerTime"":42.876326,""browserTime"":42916},{""value"":480,""playerTime"":42.876326,""browserTime"":42932},{""value"":485,""playerTime"":42.918253,""browserTime"":42950},{""value"":501,""playerTime"":42.918253,""browserTime"":42965},{""value"":527,""playerTime"":42.958662,""browserTime"":42983},{""value"":599,""playerTime"":42.958662,""browserTime"":43017},{""value"":644,""playerTime"":42.999501,""browserTime"":43032},{""value"":689,""playerTime"":42.999501,""browserTime"":43050},{""value"":733,""playerTime"":43.04009,""browserTime"":43067},{""value"":803,""playerTime"":43.04009,""browserTime"":43099},{""value"":813,""playerTime"":43.080589,""browserTime"":43116},{""value"":827,""playerTime"":43.121269,""browserTime"":43150},{""value"":827,""playerTime"":43.162108,""browserTime"":43199},{""value"":827,""playerTime"":43.162108,""browserTime"":43216},{""value"":828,""playerTime"":43.204149,""browserTime"":43232},{""value"":828,""playerTime"":43.204149,""browserTime"":43250},{""value"":829,""playerTime"":43.244943,""browserTime"":43266},{""value"":829,""playerTime"":43.244943,""browserTime"":43283},{""value"":830,""playerTime"":43.244943,""browserTime"":43299},{""value"":830,""playerTime"":43.285555,""browserTime"":43316},{""value"":831,""playerTime"":43.285555,""browserTime"":43333},{""value"":831,""playerTime"":43.326122,""browserTime"":43349},{""value"":831,""playerTime"":43.326122,""browserTime"":43366},{""value"":832,""playerTime"":43.326122,""browserTime"":43382},{""value"":832,""playerTime"":43.366575,""browserTime"":43399},{""value"":833,""playerTime"":43.366575,""browserTime"":43416},{""value"":835,""playerTime"":43.407029,""browserTime"":43432},{""value"":839,""playerTime"":43.407029,""browserTime"":43449},{""value"":847,""playerTime"":43.407029,""browserTime"":43466},{""value"":874,""playerTime"":43.447619,""browserTime"":43499},{""value"":902,""playerTime"":43.48839,""browserTime"":43516},{""value"":962,""playerTime"":43.528979,""browserTime"":43549},{""value"":978,""playerTime"":43.528979,""browserTime"":43566},{""value"":993,""playerTime"":43.569229,""browserTime"":43598},{""value"":994,""playerTime"":43.609637,""browserTime"":43632},{""value"":992,""playerTime"":43.650226,""browserTime"":43682},{""value"":988,""playerTime"":43.650226,""browserTime"":43699},{""value"":986,""playerTime"":43.690952,""browserTime"":43716},{""value"":981,""playerTime"":43.690952,""browserTime"":43750},{""value"":981,""playerTime"":43.731587,""browserTime"":43765},{""value"":981,""playerTime"":43.772131,""browserTime"":43799},{""value"":982,""playerTime"":43.772131,""browserTime"":43816},{""value"":984,""playerTime"":43.812811,""browserTime"":43832},{""value"":985,""playerTime"":43.812811,""browserTime"":43849},{""value"":985,""playerTime"":43.812811,""browserTime"":43865},{""value"":986,""playerTime"":43.853696,""browserTime"":43883},{""value"":985,""playerTime"":43.853696,""browserTime"":43899},{""value"":984,""playerTime"":43.894126,""browserTime"":43916},{""value"":982,""playerTime"":43.894126,""browserTime"":43932},{""value"":972,""playerTime"":43.936326,""browserTime"":43965},{""value"":933,""playerTime"":43.977278,""browserTime"":43999},{""value"":857,""playerTime"":43.977278,""browserTime"":44032},{""value"":808,""playerTime"":44.018548,""browserTime"":44049},{""value"":755,""playerTime"":44.018548,""browserTime"":44067},{""value"":697,""playerTime"":44.05916,""browserTime"":44084},{""value"":589,""playerTime"":44.05916,""browserTime"":44116},{""value"":551,""playerTime"":44.099773,""browserTime"":44149},{""value"":541,""playerTime"":44.140362,""browserTime"":44166},{""value"":536,""playerTime"":44.140362,""browserTime"":44183},{""value"":523,""playerTime"":44.140362,""browserTime"":44199},{""value"":487,""playerTime"":44.181043,""browserTime"":44232},{""value"":481,""playerTime"":44.221791,""browserTime"":44249},{""value"":467,""playerTime"":44.26263,""browserTime"":44283},{""value"":464,""playerTime"":44.26263,""browserTime"":44298},{""value"":464,""playerTime"":44.303129,""browserTime"":44332},{""value"":474,""playerTime"":44.343492,""browserTime"":44382},{""value"":493,""playerTime"":44.343492,""browserTime"":44398},{""value"":521,""playerTime"":44.38399,""browserTime"":44415},{""value"":560,""playerTime"":44.38399,""browserTime"":44434},{""value"":608,""playerTime"":44.42458,""browserTime"":44449},{""value"":737,""playerTime"":44.42458,""browserTime"":44483},{""value"":776,""playerTime"":44.465147,""browserTime"":44499},{""value"":797,""playerTime"":44.505714,""browserTime"":44533},{""value"":797,""playerTime"":44.505714,""browserTime"":44549},{""value"":797,""playerTime"":44.54653,""browserTime"":44567},{""value"":797,""playerTime"":44.54653,""browserTime"":44582},{""value"":798,""playerTime"":44.628321,""browserTime"":44667},{""value"":800,""playerTime"":44.628321,""browserTime"":44683},{""value"":813,""playerTime"":44.669251,""browserTime"":44716},{""value"":816,""playerTime"":44.709954,""browserTime"":44732},{""value"":816,""playerTime"":44.75077,""browserTime"":44799},{""value"":816,""playerTime"":44.791428,""browserTime"":44832},{""value"":816,""playerTime"":44.791428,""browserTime"":44850},{""value"":816,""playerTime"":44.832108,""browserTime"":44866},{""value"":816,""playerTime"":44.832108,""browserTime"":44883},{""value"":816,""playerTime"":44.872925,""browserTime"":44916},{""value"":814,""playerTime"":44.872925,""browserTime"":44933},{""value"":812,""playerTime"":44.913628,""browserTime"":44949},{""value"":812,""playerTime"":44.913628,""browserTime"":44965},{""value"":814,""playerTime"":44.954081,""browserTime"":44998},{""value"":820,""playerTime"":44.994603,""browserTime"":45016},{""value"":836,""playerTime"":44.994603,""browserTime"":45032},{""value"":867,""playerTime"":44.994603,""browserTime"":45049},{""value"":919,""playerTime"":45.035419,""browserTime"":45082},{""value"":970,""playerTime"":45.076054,""browserTime"":45099},{""value"":1034,""playerTime"":45.116712,""browserTime"":45150},{""value"":1084,""playerTime"":45.116712,""browserTime"":45165},{""value"":1092,""playerTime"":45.157142,""browserTime"":45182},{""value"":1134,""playerTime"":45.157142,""browserTime"":45216},{""value"":1143,""playerTime"":45.197823,""browserTime"":45232},{""value"":1172,""playerTime"":45.197823,""browserTime"":45249},{""value"":1246,""playerTime"":45.23848,""browserTime"":45283},{""value"":1274,""playerTime"":45.23848,""browserTime"":45298},{""value"":1288,""playerTime"":45.28009,""browserTime"":45316},{""value"":1327,""playerTime"":45.320997,""browserTime"":45349},{""value"":1377,""playerTime"":45.320997,""browserTime"":45366},{""value"":1421,""playerTime"":45.3617,""browserTime"":45399},{""value"":1431,""playerTime"":45.3617,""browserTime"":45415},{""value"":1480,""playerTime"":45.402993,""browserTime"":45449},{""value"":1491,""playerTime"":45.443514,""browserTime"":45466},{""value"":1494,""playerTime"":45.443514,""browserTime"":45482},{""value"":1497,""playerTime"":45.443514,""browserTime"":45499},{""value"":1500,""playerTime"":45.484058,""browserTime"":45532},{""value"":1505,""playerTime"":45.524807,""browserTime"":45566},{""value"":1509,""playerTime"":45.565578,""browserTime"":45599},{""value"":1509,""playerTime"":45.606326,""browserTime"":45648},{""value"":1509,""playerTime"":45.606326,""browserTime"":45666},{""value"":1509,""playerTime"":45.688775,""browserTime"":45733},{""value"":1508,""playerTime"":45.688775,""browserTime"":45749},{""value"":1505,""playerTime"":45.729591,""browserTime"":45766},{""value"":1500,""playerTime"":45.770068,""browserTime"":45799},{""value"":1496,""playerTime"":45.770068,""browserTime"":45816},{""value"":1489,""playerTime"":45.81068,""browserTime"":45833},{""value"":1462,""playerTime"":45.81068,""browserTime"":45866},{""value"":1365,""playerTime"":45.891836,""browserTime"":45915},{""value"":1301,""playerTime"":45.891836,""browserTime"":45933},{""value"":1278,""playerTime"":45.891836,""browserTime"":45948},{""value"":1156,""playerTime"":45.932267,""browserTime"":45982},{""value"":1104,""playerTime"":45.972743,""browserTime"":45999},{""value"":1056,""playerTime"":45.972743,""browserTime"":46015},{""value"":968,""playerTime"":46.013378,""browserTime"":46049},{""value"":909,""playerTime"":46.013378,""browserTime"":46066},{""value"":841,""playerTime"":46.054149,""browserTime"":46099},{""value"":788,""playerTime"":46.094965,""browserTime"":46132},{""value"":770,""playerTime"":46.094965,""browserTime"":46150},{""value"":756,""playerTime"":46.1356,""browserTime"":46165},{""value"":739,""playerTime"":46.176326,""browserTime"":46198},{""value"":737,""playerTime"":46.176326,""browserTime"":46215},{""value"":718,""playerTime"":46.21687,""browserTime"":46249},{""value"":711,""playerTime"":46.21687,""browserTime"":46266},{""value"":690,""playerTime"":46.258435,""browserTime"":46283},{""value"":673,""playerTime"":46.258435,""browserTime"":46316},{""value"":621,""playerTime"":46.299002,""browserTime"":46333},{""value"":544,""playerTime"":46.339455,""browserTime"":46366},{""value"":522,""playerTime"":46.339455,""browserTime"":46382},{""value"":421,""playerTime"":46.38,""browserTime"":46415},{""value"":397,""playerTime"":46.38,""browserTime"":46433},{""value"":379,""playerTime"":46.420634,""browserTime"":46448},{""value"":368,""playerTime"":46.420634,""browserTime"":46466},{""value"":354,""playerTime"":46.461043,""browserTime"":46499},{""value"":352,""playerTime"":46.501655,""browserTime"":46532},{""value"":347,""playerTime"":46.54229,""browserTime"":46566},{""value"":345,""playerTime"":46.54229,""browserTime"":46582},{""value"":336,""playerTime"":46.54229,""browserTime"":46599},{""value"":287,""playerTime"":46.624036,""browserTime"":46666},{""value"":239,""playerTime"":46.624036,""browserTime"":46683},{""value"":220,""playerTime"":46.664512,""browserTime"":46699},{""value"":183,""playerTime"":46.664512,""browserTime"":46717},{""value"":134,""playerTime"":46.704875,""browserTime"":46750},{""value"":117,""playerTime"":46.745442,""browserTime"":46765},{""value"":119,""playerTime"":46.745442,""browserTime"":46799},{""value"":119,""playerTime"":46.786258,""browserTime"":46816},{""value"":121,""playerTime"":46.786258,""browserTime"":46832},{""value"":121,""playerTime"":46.826938,""browserTime"":46849},{""value"":121,""playerTime"":46.826938,""browserTime"":46865},{""value"":125,""playerTime"":46.826938,""browserTime"":46882},{""value"":131,""playerTime"":46.867619,""browserTime"":46899},{""value"":134,""playerTime"":46.867619,""browserTime"":46915},{""value"":143,""playerTime"":46.908208,""browserTime"":46932},{""value"":146,""playerTime"":46.908208,""browserTime"":46966},{""value"":153,""playerTime"":46.949251,""browserTime"":46983},{""value"":191,""playerTime"":46.989818,""browserTime"":47016},{""value"":219,""playerTime"":46.989818,""browserTime"":47033},{""value"":251,""playerTime"":46.989818,""browserTime"":47049},{""value"":311,""playerTime"":47.030544,""browserTime"":47082},{""value"":395,""playerTime"":47.071541,""browserTime"":47099},{""value"":467,""playerTime"":47.112063,""browserTime"":47133},{""value"":528,""playerTime"":47.112063,""browserTime"":47167},{""value"":543,""playerTime"":47.152675,""browserTime"":47182},{""value"":585,""playerTime"":47.152675,""browserTime"":47199},{""value"":633,""playerTime"":47.193401,""browserTime"":47232},{""value"":675,""playerTime"":47.193401,""browserTime"":47249},{""value"":772,""playerTime"":47.235646,""browserTime"":47282},{""value"":834,""playerTime"":47.276303,""browserTime"":47299},{""value"":880,""playerTime"":47.276303,""browserTime"":47333},{""value"":884,""playerTime"":47.317233,""browserTime"":47366},{""value"":884,""playerTime"":47.358004,""browserTime"":47400},{""value"":884,""playerTime"":47.398594,""browserTime"":47448},{""value"":885,""playerTime"":47.439024,""browserTime"":47465},{""value"":885,""playerTime"":47.439024,""browserTime"":47482},{""value"":886,""playerTime"":47.439024,""browserTime"":47499},{""value"":888,""playerTime"":47.480249,""browserTime"":47515},{""value"":892,""playerTime"":47.480249,""browserTime"":47534},{""value"":895,""playerTime"":47.520952,""browserTime"":47549},{""value"":899,""playerTime"":47.561587,""browserTime"":47582},{""value"":899,""playerTime"":47.561587,""browserTime"":47600},{""value"":900,""playerTime"":47.561587,""browserTime"":47615},{""value"":901,""playerTime"":47.602426,""browserTime"":47633},{""value"":901,""playerTime"":47.602426,""browserTime"":47648},{""value"":901,""playerTime"":47.724943,""browserTime"":47748},{""value"":901,""playerTime"":47.724943,""browserTime"":47766},{""value"":901,""playerTime"":47.724943,""browserTime"":47782},{""value"":901,""playerTime"":47.765668,""browserTime"":47799},{""value"":901,""playerTime"":47.765668,""browserTime"":47816},{""value"":899,""playerTime"":47.806598,""browserTime"":47833},{""value"":899,""playerTime"":47.806598,""browserTime"":47849},{""value"":898,""playerTime"":47.806598,""browserTime"":47870},{""value"":898,""playerTime"":47.84712,""browserTime"":47882},{""value"":897,""playerTime"":48.377346,""browserTime"":48399},{""value"":897,""playerTime"":53.263378,""browserTime"":53299},{""value"":897,""playerTime"":53.263378,""browserTime"":53317},{""value"":897,""playerTime"":53.30526,""browserTime"":53333},{""value"":897,""playerTime"":53.30526,""browserTime"":53350},{""value"":896,""playerTime"":53.30526,""browserTime"":53369},{""value"":894,""playerTime"":53.34678,""browserTime"":53383},{""value"":890,""playerTime"":53.387482,""browserTime"":53432},{""value"":890,""playerTime"":53.427913,""browserTime"":53465},{""value"":889,""playerTime"":53.427913,""browserTime"":53483},{""value"":886,""playerTime"":53.468526,""browserTime"":53500},{""value"":848,""playerTime"":53.50916,""browserTime"":53532},{""value"":828,""playerTime"":53.50916,""browserTime"":53549},{""value"":798,""playerTime"":53.550113,""browserTime"":53583},{""value"":792,""playerTime"":53.550113,""browserTime"":53599},{""value"":786,""playerTime"":53.590702,""browserTime"":53632},{""value"":786,""playerTime"":53.590702,""browserTime"":53649},{""value"":787,""playerTime"":53.87873,""browserTime"":53916},{""value"":797,""playerTime"":53.87873,""browserTime"":53933},{""value"":848,""playerTime"":53.919546,""browserTime"":53965},{""value"":884,""playerTime"":53.960272,""browserTime"":53982},{""value"":915,""playerTime"":53.960272,""browserTime"":54000},{""value"":941,""playerTime"":54.000997,""browserTime"":54033},{""value"":948,""playerTime"":54.000997,""browserTime"":54048},{""value"":949,""playerTime"":54.041768,""browserTime"":54082},{""value"":947,""playerTime"":54.041768,""browserTime"":54099},{""value"":933,""playerTime"":54.08238,""browserTime"":54115},{""value"":924,""playerTime"":54.123287,""browserTime"":54166},{""value"":836,""playerTime"":54.123287,""browserTime"":54182},{""value"":810,""playerTime"":54.163854,""browserTime"":54200},{""value"":790,""playerTime"":54.163854,""browserTime"":54215},{""value"":764,""playerTime"":54.204512,""browserTime"":54250},{""value"":764,""playerTime"":54.245328,""browserTime"":54283}]",,,207146,207139,142085.52283899998,142091,142135.17254300002,207219.872072,
Trial sequence,flow.Sequence,1_0_0_1,2019-08-16T19:55:54.400Z,,,positive,gaze,72071.57569,completion,,1,,,,,,207181,207139,135034.112624,135028,135067.42431,207219.872072,
Cue word,canvas.Screen,1_0_0_2_0,2019-08-16T19:55:59.433Z,,,negative,self,5057.013985000027,timeout,,1,,,,,,212214,212210.353035,207186.651006,207183,207219.872072,212276.88605700003,
Fixation cross,canvas.Screen,1_0_0_2_1,2019-08-16T19:56:01.490Z,,,negative,self,2039.933207999973,timeout,,1,,,,,,214270,214267.492229,212210.353035,212216,212276.88605700003,214316.819265,
Video - Continuous,html.Screen,1_0_0_2_2,2019-08-16T19:57:25.921Z,,,negative,self,84382.180735,response,,1,,,[],,,298701,298699,214267.492229,214273,214316.819265,298768.008642,
Trial sequence,flow.Sequence,1_0_0_2,2019-08-16T19:57:25.927Z,,,negative,self,91479.127928,completion,,1,,,,,,298708,298699,207186.651006,207182,207219.872072,298768.008642,
Cue word,canvas.Screen,1_0_0_3_0,2019-08-16T19:57:30.964Z,,,negative,gaze,5040.817934999999,timeout,,1,,,,,,303745,303742.39114699996,298717.621099,298711,298768.008642,303808.82657699997,
Fixation cross,canvas.Screen,1_0_0_3_1,2019-08-16T19:57:33.023Z,,,negative,gaze,2040.6127070000512,timeout,,1,,,,,,305803,305799.977483,303742.39114699996,303748,303808.82657699997,305849.439284,
Video - Continuous,html.Screen,1_0_0_3_2,2019-08-16T19:59:31.424Z,,,negative,gaze,118347.56071599998,response,,1,,,"[{""value"":772,""playerTime"":101.086145,""browserTime"":101151},{""value"":793,""playerTime"":101.086145,""browserTime"":101166},{""value"":1028,""playerTime"":101.126689,""browserTime"":101200},{""value"":1184,""playerTime"":101.126689,""browserTime"":101215},{""value"":1360,""playerTime"":101.167233,""browserTime"":101232},{""value"":1542,""playerTime"":101.167233,""browserTime"":101249},{""value"":1708,""playerTime"":101.207777,""browserTime"":101265},{""value"":1803,""playerTime"":101.248163,""browserTime"":101316},{""value"":1803,""playerTime"":101.248163,""browserTime"":101332},{""value"":1803,""playerTime"":101.288662,""browserTime"":101350},{""value"":1803,""playerTime"":101.288662,""browserTime"":101368},{""value"":1606,""playerTime"":102.02687,""browserTime"":102099},{""value"":1597,""playerTime"":102.02687,""browserTime"":102115},{""value"":1593,""playerTime"":102.067573,""browserTime"":102132},{""value"":1569,""playerTime"":102.067573,""browserTime"":102149},{""value"":1548,""playerTime"":102.108253,""browserTime"":102165},{""value"":1528,""playerTime"":102.108253,""browserTime"":102199},{""value"":1514,""playerTime"":102.148911,""browserTime"":102216},{""value"":1508,""playerTime"":102.189614,""browserTime"":102265},{""value"":1505,""playerTime"":102.230204,""browserTime"":102283}]",,,424205,424197,305799.977483,305806,305849.439284,424281.72902699996,
Trial sequence,flow.Sequence,1_0_0_3,2019-08-16T19:59:31.443Z,,,negative,gaze,125428.99135800003,completion,,1,,,,,,424224,424197,298717.621099,298709,298768.008642,424281.72902699996,
Cue word,canvas.Screen,1_0_0_4_0,2019-08-16T19:59:36.493Z,,,negative,other,5056.3858720000135,timeout,,1,,,,,,429274,429271.598325,424231.36407,424227,424281.72902699996,429338.114899,
Fixation cross,canvas.Screen,1_0_0_4_1,2019-08-16T19:59:38.536Z,,,negative,other,2026.1193600000115,timeout,,1,,,,,,431317,431313.836419,429271.598325,429277,429338.114899,431364.234259,
Video - Continuous,html.Screen,1_0_0_4_2,2019-08-16T20:00:40.976Z,,,negative,other,62384.76574100001,response,,1,,,[],,,493757,493749,431313.836419,431320,431364.234259,493828.45372999995,
Trial sequence,flow.Sequence,1_0_0_4,2019-08-16T20:00:40.989Z,,,negative,other,69467.27097300004,completion,,1,,,,,,493770,493749,424231.36407,424226,424281.72902699996,493828.45372999995,
Cue word,canvas.Screen,1_0_0_5_0,2019-08-16T20:00:46.041Z,,,positive,self,5057.503282000078,timeout,,1,,,,,,498822,498819.384954,493779.166487,493774,493828.45372999995,498885.957012,
Fixation cross,canvas.Screen,1_0_0_5_1,2019-08-16T20:00:48.082Z,,,positive,self,2023.6488599999575,timeout,,1,,,,,,500863,500860.252797,498819.384954,498825,498885.957012,500909.605872,
Video - Continuous,html.Screen,1_0_0_5_2,2019-08-16T20:01:52.992Z,,,positive,self,64854.394128000014,response,,1,,,[],,,565772,565764,500860.252797,500865,500909.605872,565809.823913,
Trial sequence,flow.Sequence,1_0_0_5,2019-08-16T20:01:53.008Z,,,positive,self,71935.54627000005,completion,,1,,,,,,565788,565764,493779.166487,493773,493828.45372999995,565809.823913,
Trials,flow.Loop,1_0_0,2019-08-16T20:01:53.011Z,,,,,564429.880585,completion,,1,,,,,,565792,565764,1300.855092,1263,1334.119415,565809.823913,
Break,html.Screen,1_0_1,2019-08-16T20:16:46.483Z,,,,,893445.176087,response,,1,,,click,,,1459264,1459255,565793.645944,565794,565809.823913,1459322.636498,
Block (6 trials then break),flow.Sequence,1_0,2019-08-16T20:16:46.490Z,,,,,1457920.880585,completion,,1,,,,,,1459272,1459255,1300.855092,1262,1334.119415,1459322.636498,
Cue word,canvas.Screen,1_1_0_0_0,2019-08-16T20:16:51.536Z,,,negative,gaze,5056.875762999989,timeout,,2,,,,,,1464317,1464313.033313,1459289.472666,1459275,1459322.636498,1464379.512261,
Fixation cross,canvas.Screen,1_1_0_0_1,2019-08-16T20:16:53.577Z,,,negative,gaze,2024.3136620000005,timeout,,2,,,,,,1466357,1466354.282498,1464313.033313,1464319,1464379.512261,1466403.825923,
Video - Continuous,html.Screen,1_1_0_0_2,2019-08-16T20:18:17.860Z,,,negative,gaze,84228.174077,response,,2,,,[],,,1550640,1550632,1466354.282498,1466360,1466403.825923,1550703.514798,
Trial sequence,flow.Sequence,1_1_0_0,2019-08-16T20:18:17.874Z,,,negative,gaze,91309.363502,completion,,2,,,,,,1550655,1550632,1459289.472666,1459275,1459322.636498,1550703.514798,
Cue word,canvas.Screen,1_1_0_1_0,2019-08-16T20:18:22.916Z,,,negative,other,5057.637376999948,timeout,,2,,,,,,1555698,1555694.545146,1550670.28531,1550658,1550703.514798,1555761.152175,
Fixation cross,canvas.Screen,1_1_0_1_1,2019-08-16T20:18:24.975Z,,,negative,other,2041.2747630001977,timeout,,2,,,,,,1557756,1557753.040863,1555694.545146,1555700,1555761.152175,1557802.4269380001,
Video - Continuous,html.Screen,1_1_0_1_2,2019-08-16T20:19:27.243Z,,,negative,other,62212.573061999865,response,,2,,,[],,,1620024,1620015,1557753.040863,1557758,1557802.4269380001,1620102.485008,
Trial sequence,flow.Sequence,1_1_0_1,2019-08-16T20:19:27.259Z,,,negative,other,69311.48520200001,completion,,2,,,,,,1620040,1620015,1550670.28531,1550657,1550703.514798,1620102.485008,
Cue word,canvas.Screen,1_1_0_2_0,2019-08-16T20:19:32.298Z,,,positive,other,5040.762540000258,timeout,,2,,,,,,1625080,1625076.728812,1620053.069996,1620044,1620102.485008,1625143.2475480002,
Fixation cross,canvas.Screen,1_1_0_2_1,2019-08-16T20:19:34.356Z,,,positive,other,2040.820300999796,timeout,,2,,,,,,1627138,1627134.590542,1625076.728812,1625083,1625143.2475480002,1627184.067849,
Video - Continuous,html.Screen,1_1_0_2_2,2019-08-16T20:20:32.931Z,,,positive,other,58519.932151000015,response,,2,,,[],,,1685712,1685704,1627134.590542,1627140,1627184.067849,1685782.611583,
Trial sequence,flow.Sequence,1_1_0_2,2019-08-16T20:20:32.948Z,,,positive,other,65601.51499200007,completion,,2,,,,,,1685728,1685704,1620053.069996,1620043,1620102.485008,1685782.611583,
Cue word,canvas.Screen,1_1_0_3_0,2019-08-16T20:20:37.979Z,,,negative,self,5041.081227999879,timeout,,2,,,,,,1690761,1690757.207541,1685749.278251,1685733,1685782.611583,1690823.692811,
Fixation cross,canvas.Screen,1_1_0_3_1,2019-08-16T20:20:40.038Z,,,negative,self,2041.27220700006,timeout,,2,,,,,,1692819,1692815.556628,1690757.207541,1690763,1690823.692811,1692864.965018,
Video - Continuous,html.Screen,1_1_0_3_2,2019-08-16T20:21:39.003Z,,,negative,self,58909.03498200001,response,,2,,,[],,,1751783,1751774,1692815.556628,1692821,1692864.965018,1751854.3582239999,
Trial sequence,flow.Sequence,1_1_0_3,2019-08-16T20:21:39.017Z,,,negative,self,65991.38841699995,completion,,2,,,,,,1751798,1751774,1685749.278251,1685732,1685782.611583,1751854.3582239999,
Cue word,canvas.Screen,1_1_0_4_0,2019-08-16T20:21:44.067Z,,,positive,self,5057.362053000135,timeout,,2,,,,,,1756848,1756845.179181,1751803.985495,1751802,1751854.3582239999,1756911.720277,
Fixation cross,canvas.Screen,1_1_0_4_1,2019-08-16T20:21:46.125Z,,,positive,self,2040.7331980001181,timeout,,2,,,,,,1758906,1758902.7831589999,1756845.179181,1756851,1756911.720277,1758952.453475,
Video - Continuous,html.Screen,1_1_0_4_2,2019-08-16T20:22:51.024Z,,,positive,self,64846.546524999896,response,,2,,,[],,,1823805,1823799,1758902.7831589999,1758909,1758952.453475,1823868.576782,
Trial sequence,flow.Sequence,1_1_0_4,2019-08-16T20:22:51.030Z,,,positive,self,71944.64177600015,completion,,2,,,,,,1823811,1823799,1751803.985495,1751801,1751854.3582239999,1823868.576782,
Cue word,canvas.Screen,1_1_0_5_0,2019-08-16T20:22:56.080Z,,,positive,gaze,5057.3742529999,timeout,,2,,,,,,1828862,1828858.434408,1823819.239202,1823814,1823868.576782,1828925.951035,
Fixation cross,canvas.Screen,1_1_0_5_1,2019-08-16T20:22:58.139Z,,,positive,gaze,2040.2436580001377,timeout,,2,,,,,,1830920,1830916.779638,1828858.434408,1828865,1828925.951035,1830966.194693,
Video - Continuous,html.Screen,1_1_0_5_2,2019-08-16T20:23:56.532Z,,,positive,gaze,58338.805306999944,response,,2,,,[],,,1889313,1889305,1830916.779638,1830923,1830966.194693,1889350.110634,
Trial sequence,flow.Sequence,1_1_0_5,2019-08-16T20:23:56.547Z,,,positive,gaze,65436.42321799998,completion,,2,,,,,,1889328,1889305,1823819.239202,1823813,1823868.576782,1889350.110634,
Trials,flow.Loop,1_1_0,2019-08-16T20:23:56.551Z,,,,,429982.363502,completion,,2,,,,,,1889332,1889305,1459289.472666,1459274,1459322.636498,1889350.110634,
Break,html.Screen,1_1_1,2019-08-16T20:39:36.481Z,,,,,939907.889366,response,,2,,,click,,,2829262,2829258,1889332.7781089998,1889333,1889350.110634,2829323.5694569997,
Block (6 trials then break),flow.Sequence,1_1,2019-08-16T20:39:36.482Z,,,,,1369935.363502,completion,,2,,,,,,2829263,2829258,1459289.472666,1459273,1459322.636498,2829323.5694569997,
Experiment,flow.Loop,1,2019-08-16T20:39:36.484Z,,,,,2827923.880585,completion,,,,,,,,2829264,2829258,1300.855092,1261,1334.119415,2829323.5694569997,